%wavelength NaLamp
0.3         0
0.4006         0
0.4019         0
0.4031         0
0.4044         0
0.4056         0
0.4069         0
0.4082         0
0.4094         0
0.4107         0
0.4119         0
0.4132         0
0.4144         0
0.4157         0
0.4169         0
0.4182         0
0.4194         0
0.4207         0
0.4220         0
0.4232         0
0.4245         0
0.4257         0
0.4270         0
0.4282         0
0.4295         0
0.4307         0
0.4320         0
0.4332         0
0.4345         0
0.4358         0
0.4370         0
0.4383         0
0.4395         0
0.4408         0
0.4420         0
0.4433         0
0.4445         0
0.4458         0
0.4471         0
0.4483         0
0.4496         0
0.4508         0
0.4521         0
0.4533         0
0.4546         0
0.4558         0
0.4571         0
0.4583         0
0.4596         0
0.4609         0
0.4621         0
0.4634         0
0.4646         0
0.4659         0
0.4671         0
0.4684         0
0.4696         0
0.4709         0
0.4721         0
0.4734         0
0.4747         0
0.4759         0
0.4772         0
0.4784         0
0.4797         0
0.4809         0
0.4822         0
0.4834         0
0.4847         0
0.4859         0
0.4872         0
0.4885         0
0.4897         0
0.4910         0
0.4922         0
0.4935         0
0.4947         0
0.4960         0
0.4972         0
0.4985         0
0.4997         0
0.5010         0
0.5023         0
0.5035         0
0.5048         0
0.5060         0
0.5073         0
0.5085         0
0.5098         0
0.5110         0
0.5123         0
0.5136         0
0.5148         0
0.5161         0
0.5173         0
0.5186         0
0.5198         0
0.5211         0
0.5223         0
0.5236         0
0.5248         0
0.5261         0
0.5274         0
0.5286         0
0.5299         0
0.5311         0
0.5324         0
0.5336         0
0.5349         0
0.5361         0
0.5374         0
0.5386         0
0.5399         0
0.5412         0
0.5424         0
0.5437         0
0.5449         0
0.5462         0
0.5474         0
0.5487         0
0.5499    0.0019
0.5512    0.0019
0.5524    0.0019
0.5537    0.0019
0.5550    0.0038
0.5562    0.0038
0.5575    0.0038
0.5587    0.0038
0.5600    0.0038
0.5612    0.0038
0.5625    0.0057
0.5637    0.0075
0.5650    0.0075
0.5662    0.0075
0.5675    0.0094
0.5688    0.0094
0.5700    0.0113
0.5713    0.0113
0.5725    0.0113
0.5738    0.0151
0.5750    0.0170
0.5763    0.0396
0.5775    0.0679
0.5788    0.2038
0.5801    0.4623
0.5813    0.6792
0.5826    0.7698
0.5838    0.7981
0.5851    0.7604
0.5863    0.6943
0.5876    0.6340
0.5888    0.5698
0.5901    0.5019
0.5913    0.4396
0.5926    0.3887
0.5939    0.3377
0.5951    0.2377
0.5964    0.1245
0.5976    0.0679
0.5989    0.0472
0.6001    0.0321
0.6014    0.0321
0.6026    0.0302
0.6039    0.0264
0.6051    0.0245
0.6064    0.0245
0.6077    0.0208
0.6089    0.0170
0.6102    0.0151
0.6114    0.0132
0.6127    0.0113
0.6139    0.0094
0.6152    0.0075
0.6164    0.0057
0.6177    0.0038
0.6189    0.0038
0.6202    0.0019
0.6215         0
0.6227         0
0.6240         0
0.6252         0
0.6265         0
0.6277         0
0.6290         0
0.6302         0
0.6315         0
0.6327         0
0.6340         0
0.6353         0
0.6365         0
0.6378         0
0.6390         0
0.6403         0
0.6415         0
0.6428         0
0.6440         0
0.6453         0
0.6465         0
0.6478         0
0.6491         0
0.6503         0
0.6516         0
0.6528         0
0.6541         0
0.6553         0
0.6566         0
0.6578         0
0.6591         0
0.6604         0
0.6616         0
0.6629         0
0.6641         0
0.6654         0
0.6666         0
0.6679         0
0.6691         0
0.6704         0
0.6716         0
0.6729         0
0.6742         0
0.6754    0.0057
0.6767    0.0057
0.6779    0.0057
0.6792    0.0057
0.6804    0.0057
0.6817    0.0057
0.6829    0.0057
0.6842    0.0094
0.6854    0.0094
0.6867    0.0094
0.6880    0.0094
0.6892    0.0094
0.6905    0.0094
0.6917    0.0113
0.6930    0.0113
0.6942    0.0113
0.6955    0.0113
0.6967    0.0113
0.6980    0.0132
0.6992    0.0132
0.7005    0.0132
0.7018    0.0132
0.7030    0.0132
0.7043    0.0094
0.7055    0.0094
0.7068    0.0094
0.7080    0.0075
0.7093    0.0075
0.7105    0.0075
0.7118    0.0075
0.7130    0.0057
0.7143    0.0057
0.7156    0.0057
0.7168    0.0057
0.7181    0.0057
0.7193    0.0057
0.7206    0.0057
0.7218    0.0057
0.7231    0.0057
0.7243    0.0057
0.7256    0.0057
0.7269    0.0075
0.7281    0.0113
0.7294    0.0113
0.7306    0.0132
0.7319    0.0132
0.7331    0.0132
0.7344    0.0151
0.7356    0.0151
0.7369    0.0151
0.7381    0.0170
0.7394    0.0189
0.7407    0.0189
0.7419    0.0208
0.7432    0.0226
0.7444    0.0226
0.7457    0.0226
0.7469    0.0226
0.7482    0.0245
0.7494    0.0264
0.7507    0.0283
0.7519    0.0302
0.7532    0.0415
0.7545    0.0547
0.7557    0.0660
0.7570    0.0774
0.7582    0.0830
0.7595    0.0887
0.7607    0.0943
0.7620    0.0962
0.7632    0.0943
0.7645    0.0906
0.7657    0.0830
0.7670    0.0755
0.7683    0.0679
0.7695    0.0528
0.7708    0.0453
0.7720    0.0377
0.7733    0.0245
0.7745    0.0189
0.7758    0.0132
0.7770    0.0075
0.7783    0.0057
0.7795    0.0057
0.7808    0.0057
0.7821    0.0094
0.7833    0.0132
0.7846    0.0132
0.7858    0.0170
0.7871    0.0226
0.7883    0.0283
0.7896    0.0358
0.7908    0.0396
0.7921    0.0396
0.7934    0.0453
0.7946    0.0491
0.7959    0.0547
0.7971    0.0585
0.7984    0.0679
0.7996    0.0962
0.8009    0.1151
0.8021    0.1302
0.8034    0.1415
0.8046    0.1547
0.8059    0.1774
0.8072    0.1981
0.8084    0.2264
0.8097    0.2283
0.8109    0.2245
0.8122    0.2019
0.8134    0.1830
0.8147    0.1679
0.8159    0.1472
0.8172    0.1340
0.8184    0.1113
0.8197    0.0925
0.8210    0.0755
0.8222    0.0566
0.8235    0.0415
0.8247    0.0377
0.8260    0.0377
0.8272    0.0396
0.8285    0.0415
0.8297    0.0509
0.8310    0.0604
0.8322    0.0717
0.8335    0.0736
0.8348    0.0736
0.8360    0.0736
0.8373    0.0736
0.8385    0.0698
0.8398    0.0660
0.8410    0.0642
0.8423    0.0585
0.8435    0.0509
0.8448    0.0453
0.8460    0.0396
0.8473    0.0340
0.8486    0.0226
0.8498    0.0208
0.8511    0.0189
0.8523    0.0170
0.8536    0.0151
0.8548    0.0151
0.8561    0.0151
0.8573    0.0132
0.8586    0.0132
0.8598    0.0113
0.8611    0.0094
0.8624    0.0094
0.8636    0.0075
0.8649    0.0075
0.8661    0.0075
0.8674    0.0075
0.8686    0.0075
0.8699    0.0094
0.8711    0.0094
0.8724    0.0113
0.8737    0.0132
0.8749    0.0132
0.8762    0.0132
0.8774    0.0132
0.8787    0.0132
0.8799    0.0113
0.8812    0.0113
0.8824    0.0113
0.8837    0.0094
0.8849    0.0075
0.8862    0.0075
0.8875    0.0075
0.8887    0.0075
0.8900    0.0075
0.8912    0.0075
0.8925    0.0094
0.8937    0.0094
0.8950    0.0094
0.8962    0.0113
0.8975    0.0151
0.8987    0.0170
0.9000    0.0189
   