https://www.nrel.gov/grid/solar-resource/spectra-wehrli.html
 	  nm	  W/sm/nm   W/sm

     199.5     0.005  5.498E-3
     200.5     0.007  1.253E-2
     201.5     0.007  1.971E-2
     202.5     0.008  2.758E-2
     203.5     0.009  3.629E-2
     204.5     0.009  4.575E-2
     205.5     0.010  5.531E-2
     206.5     0.010  6.549E-2
     207.5     0.011  7.696E-2
     208.5     0.015  9.152E-2
     209.5     0.024  1.158E-1
     210.5     0.028  1.433E-1
     211.5     0.034  1.771E-1
     212.5     0.030  2.073E-1
     213.5     0.032  2.391E-1
     214.5     0.041  2.801E-1
     215.5     0.037  3.170E-1
     216.5     0.034  3.512E-1
     217.5     0.036  3.873E-1
     218.5     0.045  4.322E-1
     219.5     0.048  4.799E-1
     220.5     0.048  5.280E-1
     221.5     0.039  5.673E-1
     222.5     0.051  6.179E-1
     223.5     0.066  6.838E-1
     224.5     0.058  7.417E-1
     225.5     0.054  7.956E-1
     226.5     0.041  8.366E-1
     227.5     0.041  8.774E-1
     228.5     0.054  9.314E-1
     229.5     0.048  9.792E-1
     230.5     0.056  1.036E+0
     231.5     0.050  1.085E+0
     232.5     0.055  1.140E+0
     233.5     0.046  1.186E+0
     234.5     0.039  1.226E+0
     235.5     0.057  1.282E+0
     236.5     0.049  1.332E+0
     237.5     0.053  1.385E+0
     238.5     0.042  1.427E+0
     239.5     0.046  1.473E+0
     240.5     0.043  1.516E+0
     241.5     0.052  1.569E+0
     242.5     0.072  1.641E+0
     243.5     0.065  1.707E+0
     244.5     0.062  1.769E+0
     245.5     0.051  1.820E+0
     246.5     0.051  1.872E+0
     247.5     0.057  1.929E+0
     248.5     0.045  1.974E+0
     249.5     0.058  2.033E+0
     250.5     0.059  2.092E+0
     251.5     0.047  2.138E+0
     252.5     0.044  2.182E+0
     253.5     0.055  2.238E+0
     254.5     0.061  2.299E+0
     255.5     0.089  2.387E+0
     256.5     0.107  2.494E+0
     257.5     0.129  2.623E+0
     258.5     0.134  2.758E+0 
     259.5     0.108  2.865E+0
     260.5     0.102  2.967E+0
     261.5     0.103  3.071E+0
     262.5     0.121  3.191E+0 
     263.5     0.175  3.367E+0
     264.5     0.274  3.641E+0
     265.5     0.280  3.921E+0
     266.5     0.260  4.181E+0
     267.5     0.270  4.451E+0
     268.5     0.260  4.711E+0
     269.5     0.252  4.964E+0
     270.5     0.293  5.257E+0
     271.5     0.232  5.489E+0
     272.5     0.215  5.704E+0
     273.5     0.204  5.908E+0
     274.5     0.137  6.045E+0
     275.5     0.200  6.245E+0
     276.5     0.258  6.503E+0
     277.5     0.240  6.744E+0
     278.5     0.166  6.910E+0
     279.5     0.089  6.999E+0
     280.5     0.112  7.111E+0
     281.5     0.231  7.342E+0
     282.5     0.307  7.649E+0
     283.5     0.330  7.979E+0
     284.5     0.244  8.223E+0
     285.5     0.141  8.364E+0
     286.5     0.320  8.684E+0
     287.5     0.371  9.055E+0
     288.5     0.307  9.362E+0
     289.5     0.456  9.817E+0
     290.5     0.623  1.044E+1
     291.5     0.600  1.104E+1
     292.5     0.545  1.159E+1
     293.5     0.545  1.213E+1
     294.5     0.509  1.264E+1
     295.5     0.548  1.319E+1
     296.5     0.492  1.368E+1
     297.5     0.531  1.421E+1
     298.5     0.413  1.462E+1
     299.5     0.485  1.511E+1
     300.5     0.403  1.551E+1
     301.5     0.445  1.596E+1
     302.5     0.484  1.644E+1
     303.5     0.631  1.707E+1
     304.5     0.610  1.768E+1
     305.5     0.580  1.826E+1
     306.5     0.575  1.884E+1
     307.5     0.645  1.948E+1
     308.5     0.613  2.010E+1
     309.5     0.484  2.034E+1
     310.0     0.495  2.054E+1
     310.4     0.507  2.074E+1
     310.8     0.588  2.097E+1
     311.2     0.707  2.126E+1
     311.6     0.747  2.156E+1
     312.0     0.707  2.184E+1
     312.4     0.644  2.210E+1
     312.8     0.663  2.236E+1
     313.2     0.710  2.265E+1
     313.6     0.691  2.292E+1
     314.0     0.689  2.320E+1
     314.4     0.722  2.349E+1
     314.8     0.673  2.375E+1
     315.2     0.695  2.403E+1
     315.6     0.765  2.434E+1
     316.0     0.675  2.461E+1
     316.4     0.569  2.484E+1
     316.8     0.623  2.509E+1
     317.2     0.749  2.539E+1
     317.6     0.830  2.572E+1
     318.0     0.813  2.604E+1
     318.4     0.673  2.631E+1
     318.8     0.642  2.657E+1
     319.2     0.768  2.688E+1
     319.6     0.759  2.718E+1
     320.0     0.712  2.746E+1
     320.4     0.778  2.778E+1
     320.8     0.844  2.811E+1
     321.2     0.847  2.845E+1
     321.6     0.736  2.875E+1
     322.0     0.695  2.902E+1
     322.4     0.773  2.933E+1
     322.8     0.758  2.964E+1 
     323.2     0.646  2.989E+1
     323.6     0.603  3.014E+1
     324.0     0.604  3.038E+1
     324.4     0.618  3.063E+1
     324.8     0.654  3.089E+1
     325.2     0.646  3.115E+1
     325.6     0.682  3.142E+1
     326.0     0.852  3.176E+1
     326.4     1.049  3.218E+1
     326.8     1.111  3.262E+1
     327.2     1.108  3.307E+1
     327.6     1.050  3.349E+1
     328.0     0.965  3.387E+1
     328.4     0.914  3.424E+1
     328.8     0.913  3.460E+1
     329.2     0.952  3.498E+1
     329.6     1.043  3.540E+1
     330.0     1.144  3.586E+1
     330.4     1.137  3.597E+1
     330.5     1.006  3.698E+1
     331.5     0.968  3.795E+1
     332.5     0.921  3.887E+1
     333.5     0.905  3.977E+1
     334.5     0.940  4.071E+1
     335.5     0.982  4.169E+1
     336.5     0.765  4.246E+1
     337.5     0.866  4.332E+1
     338.5     0.916  4.424E+1
     339.5     0.937  4.517E+1
     340.5     0.992  4.617E+1
     341.5     0.936  4.710E+1
     342.5     0.995  4.810E+1
     343.5     0.985  4.908E+1
     344.5     0.719  4.980E+1
     345.5     0.967  5.077E+1
     346.5     0.919  5.169E+1
     347.5     0.902  5.259E+1
     348.5     0.948  5.354E+1
     349.5     0.865  5.440E+1
     350.5     1.119  5.552E+1
     351.5     0.993  5.651E+1
     352.5     0.871  5.738E+1
     353.5     1.115  5.850E+1
     354.5     1.133  5.963E+1
     355.5     1.058  6.069E+1
     356.5     0.938  6.163E+1
     357.5     0.891  6.252E+1
     358.5     0.627  6.314E+1
     359.5     1.136  6.428E+1
     360.5     0.979  6.526E+1
     361.5     0.894  6.615E+1
     362.5     1.175  6.733E+1
     363.5     0.958  6.829E+1
     364.5     1.015  6.930E+1
     365.5     1.263  7.056E+1
     366.5     1.249  7.181E+1
     367.5     1.214  7.303E+1
     368.5     1.088  7.412E+1
     369.5     1.331  7.545E+1
     370.5     1.075  7.652E+1
     371.5     1.307  7.783E+1
     372.5     1.065  7.889E+1
     373.5     0.838  7.973E+1
     374.5     0.878  8.061E+1
     375.5     1.141  8.175E+1
     376.5     1.101  8.285E+1
     377.5     1.291  8.414E+1
     378.5     1.341  8.549E+1
     379.5     1.000  8.649E+1
     380.5     1.289  8.777E+1
     381.5     1.096  8.887E+1
     382.5     0.733  8.960E+1
     383.5     0.684  9.029E+1
     384.5     1.027  9.131E+1
     385.5     0.954  9.227E+1
     386.5     1.071  9.334E+1
     387.5     0.966  9.430E+1
     388.5     0.912  9.522E+1
     389.5     1.227  9.644E+1
     390.5     1.223  9.767E+1
     391.5     1.398  9.906E+1
     392.5     0.955  1.000E+2
     393.5     0.489  1.005E+2
     394.5     1.101  1.016E+2
     395.5     1.378  1.030E+2
     396.5     0.650  1.036E+2
     397.5     1.040  1.047E+2
     398.5     1.538  1.062E+2
     399.5     1.655  1.079E+2
     400.5     1.649  1.095E+2
     401.5     1.796  1.113E+2
     402.5     1.803  1.131E+2
     403.5     1.658  1.148E+2
     404.5     1.602  1.164E+2
     405.5     1.672  1.180E+2
     406.5     1.624  1.197E+2
     407.5     1.545  1.212E+2
     408.5     1.824  1.230E+2
     409.5     1.706  1.247E+2
     410.5     1.502  1.263E+2
     411.5     1.819  1.281E+2
     412.5     1.791  1.299E+2
     413.5     1.758  1.316E+2
     414.5     1.739  1.334E+2
     415.5     1.736  1.351E+2
     416.5     1.844  1.369E+2
     417.5     1.667  1.386E+2
     418.5     1.686  1.403E+2
     419.5     1.703  1.420E+2
     420.5     1.760  1.438E+2
     421.5     1.799  1.456E+2
     422.5     1.584  1.471E+2
     423.5     1.713  1.488E+2
     424.5     1.770  1.506E+2
     425.5     1.697  1.523E+2
     426.5     1.700  1.540E+2
     427.5     1.571  1.556E+2
     428.5     1.589  1.572E+2
     429.5     1.477  1.587E+2
     430.5     1.136  1.598E+2
     431.5     1.688  1.615E+2
     432.5     1.648  1.631E+2
     433.5     1.733  1.649E+2
     434.5     1.672  1.665E+2
     435.5     1.725  1.683E+2
     436.5     1.931  1.702E+2
     437.5     1.808  1.720E+2
     438.5     1.569  1.736E+2
     439.5     1.827  1.754E+2
     440.5     1.715  1.771E+2
     441.5     1.933  1.790E+2
     442.5     1.982  1.810E+2
     443.5     1.911  1.829E+2
     444.5     1.975  1.849E+2
     445.5     1.823  1.867E+2
     446.5     1.893  1.886E+2
     447.5     2.079  1.907E+2
     448.5     1.975  1.927E+2
     449.5     2.029  1.947E+2
     450.5     2.146  1.968E+2
     451.5     2.111  1.990E+2
     452.5     1.943  2.009E+2
     453.5     1.972  2.029E+2
     454.5     1.981  2.049E+2
     455.5     2.036  2.069E+2
     456.5     2.079  2.090E+2
     457.5     2.102  2.111E+2
     458.5     1.973  2.130E+2
     459.5     2.011  2.151E+2
     460.5     2.042  2.171E+2
     461.5     2.057  2.192E+2
     462.5     2.106  2.213E+2
     463.5     2.042  2.233E+2
     464.5     1.978  2.253E+2
     465.5     2.044  2.273E+2
     466.5     1.923  2.293E+2
     467.5     2.017  2.313E+2
     468.5     1.996  2.333E+2
     469.5     1.992  2.353E+2
     470.5     1.879  2.371E+2
     471.5     2.020  2.392E+2
     472.5     2.043  2.412E+2
     473.5     1.993  2.432E+2
     474.5     2.053  2.452E+2
     475.5     2.018  2.473E+2
     476.5     1.958  2.492E+2
     477.5     2.077  2.513E+2
     478.5     2.011  2.533E+2
     479.5     2.078  2.554E+2
     480.5     2.037  2.574E+2
     481.5     2.092  2.595E+2
     482.5     2.025  2.615E+2
     483.5     2.021  2.636E+2
     484.5     1.971  2.655E+2
     485.5     1.832  2.674E+2
     486.5     1.627  2.690E+2
     487.5     1.832  2.708E+2
     488.5     1.916  2.727E+2
     489.5     1.962  2.747E+2
     490.5     2.009  2.767E+2
     491.5     1.898  2.786E+2
     492.5     1.898  2.805E+2
     493.5     1.890  2.824E+2
     494.5     2.060  2.845E+2
     495.5     1.928  2.864E+2
     496.5     2.019  2.884E+2
     497.5     2.020  2.904E+2
     498.5     1.868  2.923E+2
     499.5     1.972  2.943E+2
     500.5     1.859  2.961E+2
     501.5     1.814  2.979E+2
     502.5     1.896  2.998E+2
     503.5     1.936  3.018E+2
     504.5     1.871  3.036E+2
     505.5     1.995  3.056E+2
     506.5     1.963  3.076E+2
     507.5     1.908  3.095E+2
     508.5     1.921  3.114E+2
     509.5     1.918  3.134E+2
     510.5     1.949  3.153E+2
     511.5     1.999  3.173E+2
     512.5     1.869  3.192E+2
     513.5     1.863  3.210E+2
     514.5     1.876  3.229E+2
     515.5     1.902  3.248E+2
     516.5     1.671  3.265E+2
     517.5     1.728  3.282E+2
     518.5     1.656  3.299E+2
     519.5     1.830  3.317E+2
     520.5     1.833  3.335E+2
     521.5     1.908  3.354E+2
     522.5     1.825  3.373E+2
     523.5     1.896  3.392E+2
     524.5     1.960  3.411E+2
     525.5     1.932  3.431E+2
     526.5     1.676  3.447E+2
     527.5     1.830  3.466E+2
     528.5     1.899  3.485E+2
     529.5     1.920  3.504E+2
     530.5     1.954  3.523E+2
     531.5     1.965  3.543E+2
     532.5     1.773  3.561E+2
     533.5     1.925  3.580E+2
     534.5     1.860  3.599E+2
     535.5     1.992  3.619E+2
     536.5     1.873  3.637E+2
     537.5     1.884  3.656E+2
     538.5     1.906  3.675E+2
     539.5     1.834  3.694E+2
     540.5     1.772  3.711E+2
     541.5     1.883  3.730E+2
     542.5     1.827  3.748E+2
     543.5     1.881  3.767E+2
     544.5     1.881  3.786E+2
     545.5     1.903  3.805E+2
     546.5     1.881  3.824E+2 
     547.5     1.835  3.842E+2
     548.5     1.865  3.861E+2
     549.5     1.897  3.880E+2
     550.5     1.864  3.898E+2
     551.5     1.873  3.917E+2
     552.5     1.848  3.936E+2
     553.5     1.884  3.954E+2
     554.5     1.900  3.973E+2
     555.5     1.899  3.992E+2
     556.5     1.823  4.011E+2
     557.5     1.848  4.029E+2
     558.5     1.789  4.047E+2
     559.5     1.810  4.065E+2
     560.5     1.845  4.084E+2
     561.5     1.826  4.102E+2
     562.5     1.852  4.120E+2
     563.5     1.863  4.139E+2
     564.5     1.856  4.158E+2
     565.5     1.800  4.176E+2
     566.5     1.831  4.194E+2
     567.5     1.889  4.213E+2
     568.5     1.812  4.231E+2
     569.5     1.862  4.250E+2
     570.5     1.772  4.267E+2
     571.5     1.825  4.286E+2
     572.5     1.894  4.305E+2
     573.5     1.878  4.323E+2
     574.5     1.869  4.342E+2
     575.5     1.832  4.360E+2
     576.5     1.848  4.379E+2
     577.5     1.859  4.397E+2
     578.5     1.786  4.415E+2
     579.5     1.830  4.434E+2
     580.5     1.840  4.452E+2
     581.5     1.855  4.471E+2
     582.5     1.875  4.489E+2
     583.5     1.859  4.508E+2
     584.5     1.862  4.526E+2
     585.5     1.786  4.544E+2
     586.5     1.832  4.563E+2
     587.5     1.850  4.581E+2
     588.5     1.752  4.599E+2
     589.5     1.614  4.615E+2
     590.5     1.815  4.633E+2
     591.5     1.789  4.651E+2
     592.5     1.810  4.669E+2
     593.5     1.798  4.687E+2
     594.5     1.776  4.705E+2
     595.5     1.785  4.723E+2
     596.5     1.807  4.741E+2
     597.5     1.783  4.758E+2
     598.5     1.760  4.776E+2
     599.5     1.777  4.794E+2
     600.5     1.748  4.811E+2
     601.5     1.753  4.829E+2
     602.5     1.721  4.846E+2
     603.5     1.789  4.864E+2
     604.5     1.779  4.882E+2
     605.5     1.766  4.899E+2
     606.5     1.762  4.917E+2
     607.5     1.760  4.935E+2
     608.5     1.745  4.952E+2
     609.5     1.746  4.969E+2
     610.5     1.705  4.987E+2
     611.5     1.748  5.004E+2
     612.5     1.707  5.021E+2
     613.5     1.685  5.038E+2
     614.5     1.715  5.055E+2
     615.5     1.715  5.072E+2
     616.5     1.611  5.088E+2
     617.5     1.709  5.105E+2
     618.5     1.726  5.123E+2
     619.5     1.709  5.140E+2
     620.5     1.736  5.157E+2
     621.5     1.692  5.174E+2
     622.5     1.715  5.191E+2
     623.5     1.668  5.208E+2
     624.5     1.658  5.224E+2
     625.5     1.634  5.241E+2
     626.5     1.699  5.258E+2
     627.5     1.699  5.275E+2
     628.5     1.699  5.292E+2
     629.5     1.679  5.317E+2
     631.0     1.641  5.350E+2
     633.0     1.653  5.383E+2
     635.0     1.658  5.416E+2
     637.0     1.656  5.449E+2
     639.0     1.653  5.482E+2
     641.0     1.616  5.514E+2
     643.0     1.623  5.547E+2
     645.0     1.629  5.579E+2
     647.0     1.605  5.612E+2
     649.0     1.560  5.643E+2
     651.0     1.608  5.675E+2
     653.0     1.601  5.707E+2
     655.0     1.534  5.738E+2 
     657.0     1.386  5.765E+2
     659.0     1.551  5.796E+2
     661.0     1.573  5.828E+2
     663.0     1.557  5.859E+2
     665.0     1.562  5.890E+2
     667.0     1.537  5.921E+2
     669.0     1.548  5.952E+2
     671.0     1.518  5.982E+2
     673.0     1.523  6.013E+2
     675.0     1.512  6.043E+2
     677.0     1.510  6.073E+2
     679.0     1.500  6.103E+2
     681.0     1.494  6.133E+2
     683.0     1.481  6.163E+2
     685.0     1.457  6.192E+2
     687.0     1.469  6.221E+2
     689.0     1.463  6.250E+2
     691.0     1.450  6.279E+2
     693.0     1.450  6.308E+2
     695.0     1.438  6.337E+2
     697.0     1.418  6.365E+2
     699.0     1.427  6.394E+2
     701.0     1.388  6.422E+2
     703.0     1.390  6.450E+2
     705.0     1.417  6.478E+2
     707.0     1.402  6.506E+2
     709.0     1.386  6.534E+2
     711.0     1.387  6.561E+2
     713.0     1.375  6.589E+2
     715.0     1.368  6.616E+2
     717.0     1.355  6.643E+2
     719.0     1.329  6.670E+2
     721.0     1.332  6.697E+2
     723.0     1.349  6.724E+2
     725.0     1.351  6.751E+2
     727.0     1.347  6.778E+2
     729.0     1.320  6.804E+2
     731.0     1.327  6.830E+2
     733.0     1.319  6.857E+2
     735.0     1.310  6.883E+2
     737.0     1.308  6.909E+2
     739.0     1.279  6.935E+2
     741.0     1.259  6.960E+2
     743.0     1.287  6.986E+2
     745.0     1.280  7.011E+2
     747.0     1.284  7.037E+2
     749.0     1.271  7.062E+2
     751.0     1.263  7.088E+2
     753.0     1.260  7.113E+2
     755.0     1.256  7.138E+2
     757.0     1.249  7.163E+2
     759.0     1.241  7.188E+2
     761.0     1.238  7.213E+2
     763.0     1.242  7.237E+2
     765.0     1.222  7.262E+2
     767.0     1.186  7.286E+2
     769.0     1.204  7.310E+2
     771.0     1.205  7.334E+2
     773.0     1.209  7.358E+2
     775.0     1.189  7.382E+2
     777.0     1.197  7.406E+2
     779.0     1.188  7.430E+2
     781.0     1.188  7.453E+2
     783.0     1.177  7.477E+2
     785.0     1.181  7.500E+2
     787.0     1.178  7.524E+2
     789.0     1.175  7.548E+2
     791.0     1.159  7.571E+2
     793.0     1.144  7.594E+2
     795.0     1.135  7.616E+2
     797.0     1.153  7.639E+2
     799.0     1.136  7.662E+2
     801.0     1.143  7.685E+2
     803.0     1.130  7.708E+2
     805.0     1.116  7.730E+2
     807.0     1.121  7.752E+2
     809.0     1.096  7.774E+2
     811.0     1.115  7.797E+2
     813.0     1.116  7.819E+2
     815.0     1.108  7.841E+2
     817.0     1.105  7.863E+2
     819.0     1.065  7.884E+2
     821.0     1.081  7.906E+2
     823.0     1.074  7.928E+2
     825.0     1.076  7.949E+2
     827.0     1.077  7.971E+2
     829.0     1.073  7.992E+2
     831.0     1.069  8.014E+2
     833.0     1.034  8.034E+2
     835.0     1.053  8.055E+2
     837.0     1.052  8.076E+2
     839.0     1.042  8.097E+2
     841.0     1.045  8.118E+2
     843.0     1.028  8.139E+2 
     845.0     1.033  8.159E+2
     847.0     1.025  8.180E+2
     849.0     0.971  8.199E+2
     851.0     1.003  8.219E+2
     853.0     0.973  8.239E+2
     855.0     0.877  8.256E+2
     857.0     1.011  8.276E+2
     859.0     0.997  8.296E+2
     861.0     0.997  8.316E+2
     863.0     0.999  8.336E+2
     865.0     0.970  8.356E+2
     867.0     0.880  8.373E+2
     869.0     0.967  8.393E+2
     871.0     0.986  8.412E+2
     873.0     0.978  8.432E+2
     875.0     0.981  8.451E+2
     877.0     0.984  8.471E+2
     879.0     0.959  8.490E+2
     881.0     0.960  8.509E+2
     883.0     0.948  8.528E+2
     885.0     0.963  8.548E+2
     887.0     0.947  8.567E+2
     889.0     0.949  8.586E+2
     891.0     0.944  8.605E+2
     893.0     0.934  8.623E+2 
     895.0     0.936  8.642E+2
     897.0     0.939  8.661E+2
     899.0     0.912  8.679E+2
     901.0     0.905  8.697E+2
     903.0     0.905  8.715E+2
     905.0     0.893  8.733E+2
     907.0     0.891  8.751E+2
     909.0     0.861  8.768E+2
     911.0     0.870  8.785E+2
     913.0     0.876  8.803E+2
     915.0     0.866  8.820E+2
     917.0     0.859  8.837E+2
     919.0     0.858  8.855E+2
     921.0     0.830  8.871E+2
     923.0     0.821  8.888E+2
     925.0     0.825  8.904E+2
     927.0     0.828  8.921E+2
     929.0     0.833  8.937E+2
     931.0     0.826  8.954E+2
     933.0     0.832  8.971E+2
     935.0     0.818  8.987E+2
     937.0     0.802  9.003E+2
     939.0     0.808  9.019E+2
     941.0     0.800  9.035E+2
     943.0     0.784  9.051E+2
     945.0     0.799  9.067E+2
     947.0     0.793  9.083E+2
     949.0     0.777  9.098E+2
     951.0     0.778  9.114E+2
     953.0     0.771  9.129E+2
     955.0     0.760  9.144E+2
     957.0     0.774  9.160E+2
     959.0     0.771  9.175E+2
     961.0     0.767  9.191E+2
     963.0     0.767  9.206E+2
     965.0     0.764  9.221E+2
     967.0     0.757  9.236E+2
     969.0     0.776  9.252E+2
     971.0     0.763  9.267E+2
     973.0     0.764  9.282E+2
     975.0     0.750  9.297E+2
     977.0     0.768  9.313E+2
     979.0     0.768  9.328E+2
     981.0     0.762  9.343E+2
     983.0     0.766  9.359E+2
     985.0     0.771  9.374E+2
     987.0     0.756  9.389E+2
     989.0     0.767  9.405E+2
     991.0     0.764  9.420E+2
     993.0     0.755  9.435E+2
     995.0     0.756  9.450E+2
     997.0     0.743  9.465E+2
     999.0     0.743  9.491E+2
    1002.5     0.745  9.528E+2
    1007.5     0.737  9.565E+2
    1012.5     0.734  9.602E+2
    1017.5     0.721  9.638E+2
    1022.5     0.704  9.673E+2
    1027.5     0.708  9.708E+2
    1032.5     0.688  9.743E+2
    1037.5     0.692  9.777E+2
    1042.5     0.681  9.811E+2
    1047.5     0.685  9.846E+2
    1052.5     0.661  9.879E+2
    1057.5     0.650  9.911E+2
    1062.5     0.642  9.943E+2
    1067.5     0.643  9.975E+2
    1072.5     0.638  1.001E+3
    1077.5     0.630  1.004E+3
    1082.5     0.620  1.007E+3
    1087.5     0.614  1.010E+3
    1092.5     0.612  1.013E+3
    1097.5     0.599  1.016E+3
    1102.5     0.608  1.019E+3
    1107.5     0.601  1.022E+3
    1112.5     0.603  1.025E+3
    1117.5     0.589  1.028E+3
    1122.5     0.579  1.031E+3
    1127.5     0.569  1.034E+3
    1132.5     0.566  1.037E+3
    1137.5     0.563  1.039E+3
    1142.5     0.557  1.042E+3
    1147.5     0.556  1.045E+3
    1152.5     0.545  1.048E+3
    1157.5     0.554  1.051E+3
    1162.5     0.540  1.053E+3
    1167.5     0.530  1.056E+3
    1172.5     0.533  1.059E+3
    1177.5     0.525  1.061E+3
    1182.5     0.514  1.064E+3
    1187.5     0.512  1.066E+3
    1192.5     0.511  1.069E+3
    1197.5     0.502  1.071E+3
    1202.5     0.496  1.074E+3
    1207.5     0.494  1.076E+3
    1212.5     0.489  1.079E+3
    1217.5     0.500  1.081E+3
    1222.5     0.481  1.084E+3
    1227.5     0.481  1.086E+3
    1232.5     0.484  1.089E+3
    1237.5     0.477  1.091E+3
    1242.5     0.477  1.093E+3
    1247.5     0.466  1.096E+3
    1252.5     0.474  1.098E+3
    1257.5     0.463  1.100E+3
    1262.5     0.444  1.103E+3
    1267.5     0.438  1.105E+3
    1272.5     0.439  1.107E+3
    1277.5     0.453  1.109E+3
    1282.5     0.435  1.111E+3
    1287.5     0.437  1.114E+3
    1292.5     0.442  1.116E+3
    1297.5     0.438  1.118E+3
    1302.5     0.438  1.120E+3
    1307.5     0.429  1.122E+3
    1312.5     0.419  1.124E+3
    1317.5     0.416  1.126E+3
    1322.5     0.416  1.129E+3
    1327.5     0.411  1.131E+3
    1332.5     0.405  1.133E+3
    1337.5     0.400  1.135E+3
    1342.5     0.398  1.137E+3
    1347.5     0.394  1.139E+3
    1352.5     0.387  1.140E+3
    1357.5     0.382  1.142E+3
    1362.5     0.378  1.144E+3
    1367.5     0.370  1.146E+3
    1372.5     0.369  1.148E+3
    1377.5     0.368  1.150E+3
    1382.5     0.364  1.152E+3
    1387.5     0.364  1.153E+3
    1392.5     0.358  1.155E+3
    1397.5     0.357  1.157E+3
    1402.5     0.353  1.159E+3
    1407.5     0.350  1.161E+3
    1412.5     0.346  1.162E+3 
    1417.5     0.344  1.164E+3
    1422.5     0.343  1.166E+3
    1427.5     0.348  1.167E+3
    1432.5     0.337  1.169E+3
    1437.5     0.331  1.171E+3
    1442.5     0.327  1.172E+3
    1447.5     0.318  1.174E+3
    1452.5     0.323  1.176E+3
    1457.5     0.307  1.177E+3
    1462.5     0.317  1.179E+3
    1467.5     0.311  1.180E+3
    1472.5     0.311  1.182E+3
    1477.5     0.307  1.183E+3
    1482.5     0.303  1.185E+3
    1487.5     0.298  1.186E+3
    1492.5     0.303  1.188E+3
    1497.5     0.300  1.189E+3
    1502.5     0.296  1.191E+3
    1507.5     0.295  1.192E+3
    1512.5     0.290  1.194E+3
    1517.5     0.290  1.195E+3
    1522.5     0.286  1.197E+3
    1527.5     0.290  1.198E+3
    1532.5     0.282  1.200E+3
    1537.5     0.274  1.201E+3
    1542.5     0.275  1.202E+3
    1547.5     0.274  1.204E+3
    1552.5     0.273  1.205E+3
    1557.5     0.272  1.206E+3
    1562.5     0.269  1.208E+3
    1567.5     0.263  1.209E+3
    1572.5     0.260  1.210E+3
    1577.5     0.259  1.212E+3
    1582.5     0.255  1.213E+3
    1587.5     0.252  1.214E+3
    1592.5     0.246  1.215E+3
    1597.5     0.246  1.217E+3
    1602.5     0.247  1.218E+3
    1607.5     0.242  1.219E+3
    1612.5     0.244  1.220E+3
    1617.5     0.243  1.222E+3
    1622.5     0.240  1.223E+3
    1627.5     0.244  1.224E+3
    1632.5     0.241  1.225E+3
    1637.5     0.237  1.226E+3
    1642.5     0.234  1.228E+3
    1647.5     0.235  1.229E+3
    1652.5     0.234  1.230E+3
    1657.5     0.234  1.231E+3
    1662.5     0.233  1.232E+3
    1667.5     0.229  1.233E+3
    1672.5     0.228  1.234E+3
    1677.5     0.220  1.236E+3
    1682.5     0.221  1.237E+3
    1687.5     0.219  1.238E+3
    1692.5     0.219  1.239E+3
    1697.5     0.214  1.240E+3
    1702.5     0.217  1.241E+3
    1707.5     0.212  1.242E+3
    1712.5     0.203  1.243E+3
    1717.5     0.212  1.244E+3
    1722.5     0.205  1.245E+3
    1727.5     0.196  1.246E+3
    1732.5     0.190  1.247E+3
    1737.5     0.189  1.248E+3
    1742.5     0.191  1.249E+3
    1747.5     0.185  1.250E+3
    1752.5     0.187  1.251E+3
    1757.5     0.189  1.252E+3
    1762.5     0.184  1.253E+3
    1767.5     0.182  1.254E+3
    1772.5     0.177  1.255E+3
    1777.5     0.173  1.255E+3
    1782.5     0.171  1.256E+3
    1787.5     0.170  1.257E+3
    1792.5     0.169  1.258E+3
    1797.5     0.173  1.259E+3
    1802.5     0.169  1.260E+3
    1807.5     0.168  1.261E+3
    1812.5     0.160  1.261E+3
    1817.5     0.160  1.262E+3
    1822.5     0.159  1.263E+3
    1827.5     0.156  1.264E+3
    1832.5     0.156  1.264E+3
    1837.5     0.150  1.265E+3
    1842.5     0.153  1.266E+3
    1847.5     0.151  1.267E+3
    1852.5     0.148  1.267E+3
    1857.5     0.145  1.268E+3
    1862.5     0.143  1.269E+3
    1867.5     0.143  1.270E+3
    1872.5     0.135  1.270E+3
    1877.5     0.135  1.271E+3
    1882.5     0.140  1.272E+3
    1887.5     0.138  1.272E+3
    1892.5     0.137  1.273E+3
    1897.5     0.138  1.274E+3
    1902.5     0.133  1.274E+3
    1907.5     0.136  1.275E+3
    1912.5     0.138  1.276E+3
    1917.5     0.136  1.276E+3
    1922.5     0.134  1.277E+3
    1927.5     0.132  1.278E+3
    1932.5     0.132  1.278E+3
    1937.5     0.131  1.279E+3
    1942.5     0.129  1.280E+3
    1947.5     0.127  1.280E+3
    1952.5     0.126  1.281E+3
    1957.5     0.122  1.282E+3
    1962.5     0.126  1.282E+3
    1967.5     0.125  1.283E+3
    1972.5     0.125  1.284E+3
    1977.5     0.129  1.284E+3
    1982.5     0.125  1.285E+3
    1987.5     0.123  1.285E+3
    1992.5     0.121  1.286E+3
    1997.5     0.123  1.287E+3
    2002.5     0.116  1.287E+3
    2012.5     0.114  1.288E+3
    2022.5     0.113  1.289E+3
    2032.5     0.110  1.291E+3
    2042.5     0.107  1.292E+3
    2052.5     0.104  1.293E+3
    2062.5     0.100  1.294E+3
    2077.5     0.101  1.295E+3
    2092.5     0.098  1.297E+3
    2107.5     0.093  1.298E+3
    2122.5     0.087  1.299E+3
    2137.5     0.085  1.301E+3
    2152.5     0.081  1.302E+3
    2167.5     0.080  1.303E+3
    2182.5     0.075  1.304E+3
    2197.5     0.073  1.305E+3
    2212.5     0.075  1.307E+3
    2227.5     0.075  1.308E+3
    2247.5     0.072  1.309E+3
    2262.5     0.071  1.310E+3
    2282.5     0.069  1.311E+3
    2302.5     0.066  1.313E+3
    2322.5     0.053  1.314E+3
    2342.5     0.058  1.315E+3
    2362.5     0.065  1.316E+3
    2382.5     0.055  1.317E+3
    2402.5     0.054  1.319E+3
    2422.5     0.057  1.320E+3
    2442.5     0.051  1.321E+3
    2467.5     0.053  1.322E+3
    2492.5     0.054  1.323E+3 
    2517.5     0.047  1.325E+3
    2542.5     0.046  1.326E+3
    2567.5     0.044  1.327E+3
    2592.5     0.042  1.328E+3
    2617.5     0.041  1.329E+3
    2642.5     0.039  1.330E+3
    2672.5     0.038  1.331E+3
    2702.5     0.036  1.332E+3
    2732.5     0.035  1.333E+3
    2762.5     0.034  1.334E+3
    2797.5     0.032  1.335E+3
    2832.5     0.031  1.336E+3
    2867.5     0.029  1.338E+3
    2907.5     0.028  1.339E+3
    2947.5     0.026  1.340E+3
    2987.5     0.025  1.341E+3
    3025.0     0.024  1.342E+3
    3075.0     0.023  1.343E+3
    3125.0     0.021  1.344E+3
    3175.0     0.020  1.345E+3
    3235.0     0.019  1.346E+3
    3295.0     0.018  1.347E+3
    3355.0     0.016  1.348E+3
    3425.0     0.015  1.349E+3 
    3495.0     0.014  1.350E+3
    3575.0     0.013  1.352E+3
    3665.0     0.012  1.353E+3
    3755.0     0.011  1.354E+3
    3855.0     0.010  1.355E+3
    3965.0     0.009  1.356E+3
    4085.0     0.008  1.357E+3
    4225.0     0.007  1.358E+3
    4385.0     0.006  1.359E+3
    4575.0     0.005  1.360E+3
    4805.0     0.004  1.361E+3
    5085.0     0.003  1.362E+3
    5445.0     0.002  1.363E+3
    5925.0     0.002  1.364E+3
    6615.0     0.001  1.365E+3
    7785.0     0.001  1.366E+3
   10075.0     0.000  1.367E+3
